File: data/material-model/steinberger/test-steinberger-compressible/peridotite_rheology.txt
273.0 	1500.0	0.0	0.000e+00	2.725830e-01
582.47	1500.0	0.0	0.000e+00	1.457593e+01
891.94	1500.0	1.0	0.000e+00	8.877403e+01
1201.41	1500.0	1.0	0.000e+00	1.363267e+02
1510.88	1500.0	3.0	1.858e-01	1.525719e+02
387.618	1815.26	0.0	0.000e+00	4.529619e-01
697.088	1815.26	0.0	0.000e+00	4.396139e+01
1006.56	1815.26	1.0	0.000e+00	1.320686e+02
1316.03	1815.26	1.0	0.000e+00	1.754077e+02
1625.5	1815.26	3.0	2.654e-01	1.906526e+02
502.237	2130.52	0.0	0.000e+00	6.748759e+00
811.707	2130.52	1.0	0.000e+00	8.956541e+01
1121.18	2130.52	1.0	0.000e+00	1.792271e+02
1430.65	2130.52	1.0	1.055e-01	2.172815e+02
307.386	2445.78	0.0	0.000e+00	3.073226e-02
616.855	2445.78	0.0	0.000e+00	3.042371e+01
926.325	2445.78	1.0	0.000e+00	1.466387e+02
1235.8	2445.78	1.0	0.000e+00	2.289934e+02
1545.27	2445.78	3.0	1.933e-01	2.616992e+02
422.004	2761.04	0.0	0.000e+00	1.924665e+00
731.474	2761.04	0.0	0.000e+00	7.804785e+01
1040.94	2761.04	1.0	0.000e+00	2.093122e+02
1350.41	2761.04	1.0	0.000e+00	2.811898e+02
1659.88	2761.04	3.0	2.732e-01	3.083437e+02
536.622	3076.31	0.0	0.000e+00	1.657036e+01
846.092	3076.31	1.0	0.000e+00	1.456146e+02
1155.56	3076.31	1.0	0.000e+00	2.749117e+02
1465.03	3076.31	1.0	1.118e-01	3.349846e+02
341.771	3391.57	0.0	0.000e+00	2.123497e-01
651.241	3391.57	0.0	0.000e+00	5.878675e+01
960.711	3391.57	1.0	0.000e+00	2.246307e+02
1270.18	3391.57	1.0	0.000e+00	3.415105e+02
1579.65	3391.57	3.0	1.967e-01	3.901095e+02
456.39	3706.83	0.0	0.000e+00	6.233796e+00
765.859	3706.83	0.0	0.000e+00	1.303969e+02
1075.33	3706.83	1.0	0.000e+00	3.092706e+02
1384.8	3706.83	1.0	0.000e+00	4.082191e+02
1694.27	3706.83	3.0	2.821e-01	4.465695e+02
571.008	4022.09	0.0	0.000e+00	3.662089e+01
880.478	4022.09	1.0	0.000e+00	2.242802e+02
1189.95	4022.09	1.0	0.000e+00	3.945367e+02
1499.42	4022.09	1.0	1.229e-01	4.753758e+02
376.157	4337.35	0.0	0.000e+00	1.253082e+00
685.627	4337.35	0.0	0.000e+00	1.048817e+02
995.096	4337.35	1.0	0.000e+00	3.293072e+02
1304.57	4337.35	1.0	0.000e+00	4.790634e+02
1614.04	4337.35	3.0	2.085e-01	5.423678e+02
490.775	4652.61	0.0	0.000e+00	1.690246e+01
800.245	4652.61	0.0	0.000e+00	2.081311e+02
1109.71	4652.61	1.0	0.000e+00	4.368795e+02
1419.18	4652.61	1.0	0.000e+00	5.617843e+02
295.924	4967.87	0.0	0.000e+00	1.980944e-01
605.394	4967.87	0.0	0.000e+00	7.265143e+01
914.863	4967.87	1.0	0.000e+00	3.318423e+02
1224.33	4967.87	1.0	0.000e+00	5.435818e+02
1533.8	4967.87	1.0	1.286e-01	6.424361e+02
410.542	5283.13	0.0	0.000e+00	4.973217e+00
720.012	5283.13	0.0	0.000e+00	1.772042e+02
1029.48	5283.13	1.0	0.000e+00	4.651854e+02
1338.95	5283.13	1.0	0.000e+00	6.464487e+02
1648.42	5283.13	3.0	2.202e-01	7.218270e+02
525.161	5598.39	0.0	0.000e+00	4.034356e+01
834.631	5598.39	0.0	0.000e+00	3.169330e+02
1144.1	5598.39	1.0	0.000e+00	5.983907e+02
1453.57	5598.39	1.0	4.630e-02	7.454317e+02
330.309	5913.65	0.0	0.000e+00	6.058028e-01
639.779	5913.65	0.0	0.000e+00	1.332550e+02
949.249	5913.65	1.0	0.000e+00	4.760777e+02
1258.72	5913.65	1.0	0.000e+00	7.262993e+02
1568.19	5913.65	1.0	1.431e-01	8.403776e+02
444.928	6228.92	0.0	0.000e+00	1.549981e+01
754.398	6228.92	0.0	0.000e+00	2.827033e+02
1063.87	6228.92	1.0	0.000e+00	6.385453e+02
1373.34	6228.92	1.0	0.000e+00	8.482846e+02
1682.81	6228.92	3.0	2.316e-01	9.316170e+02
559.546	6544.18	0.0	0.000e+00	8.475550e+01
869.016	6544.18	1.0	0.000e+00	4.666398e+02
1178.49	6544.18	1.0	0.000e+00	7.978931e+02
1487.96	6544.18	1.0	6.372e-02	9.633090e+02
364.695	6859.44	0.0	0.000e+00	3.288470e+00
674.165	6859.44	0.0	0.000e+00	2.300901e+02
983.635	6859.44	1.0	0.000e+00	6.620324e+02
1293.1	6859.44	1.0	0.000e+00	9.484296e+02
1602.57	6859.44	1.0	1.483e-01	1.072179e+03
479.313	7174.7	0.0	0.000e+00	4.111971e+01
788.783	7174.7	0.0	0.000e+00	4.318993e+02
1098.25	7174.7	1.0	0.000e+00	8.569587e+02
1407.72	7174.7	1.0	0.000e+00	1.088489e+03
284.462	7489.96	0.0	0.000e+00	5.087856e+00
593.932	7489.96	0.0	0.000e+00	1.622988e+02
903.402	7489.96	1.0	0.000e+00	6.632509e+02
1212.87	7489.96	1.0	0.000e+00	1.041214e+03
1522.34	7489.96	1.0	8.474e-02	1.219383e+03
399.08	7805.22	0.0	0.000e+00	1.287887e+01
708.55	7805.22	0.0	0.000e+00	3.729985e+02
1018.02	7805.22	1.0	0.000e+00	8.993695e+02
1327.49	7805.22	1.0	0.000e+00	1.213662e+03
1636.96	7805.22	3.0	1.618e-01	1.341545e+03
513.699	8120.48	0.0	0.000e+00	9.339619e+01
823.169	8120.48	0.0	0.000e+00	6.373081e+02
1132.64	8120.48	1.0	0.000e+00	1.124685e+03
1442.11	8120.48	1.0	0.000e+00	1.372121e+03
318.847	8435.74	0.0	0.000e+00	1.793049e+00
628.317	8435.74	0.0	0.000e+00	2.898697e+02
937.787	8435.74	1.0	0.000e+00	9.171770e+02
1247.26	8435.74	1.0	0.000e+00	1.335337e+03
1556.73	8435.74	1.0	9.402e-02	1.517413e+03
433.466	8751.0	0.0	0.000e+00	3.847503e+01
742.936	8751.0	0.0	0.000e+00	5.764543e+02
1052.41	8751.0	1.0	0.000e+00	1.193108e+03
1361.88	8751.0	1.0	0.000e+00	1.527509e+03
1671.35	8751.0	3.0	1.765e-01	1.652170e+03
548.084	9066.27	0.0	0.000e+00	1.916887e+02
857.554	9066.27	0.0	0.000e+00	9.067453e+02
1167.02	9066.27	1.0	0.000e+00	1.450472e+03
1476.49	9066.27	1.0	1.819e-02	1.702600e+03
353.233	9381.53	0.0	0.000e+00	8.917726e+00
662.703	9381.53	0.0	0.000e+00	4.816857e+02
972.173	9381.53	1.0	0.000e+00	1.239667e+03
1281.64	9381.53	1.0	0.000e+00	1.683933e+03
1591.11	9381.53	1.0	1.051e-01	1.861682e+03
467.851	9696.79	0.0	0.000e+00	9.669501e+01
777.321	9696.79	0.0	0.000e+00	8.575801e+02
1086.79	9696.79	1.0	0.000e+00	1.551965e+03
1396.26	9696.79	1.0	0.000e+00	1.895220e+03
273.0 	10012.0	0.0	0.000e+00	1.363567e+03
582.47	10012.0	0.0	0.000e+00	3.552530e+02
891.94	10012.0	1.0	0.000e+00	1.253556e+03
1201.41	10012.0	1.0	0.000e+00	1.838533e+03
1510.88	10012.0	1.0	2.950e-02	2.084798e+03
387.618	10327.3	0.0	0.000e+00	3.260484e+01
697.088	10327.3	0.0	0.000e+00	7.616195e+02
1006.56	10327.3	1.0	0.000e+00	1.636456e+03
1316.03	10327.3	1.0	0.000e+00	2.094504e+03
1625.5	10327.3	1.0	1.187e-01	2.255481e+03
502.237	10642.6	0.0	0.000e+00	2.148336e+02
811.707	10642.6	0.0	0.000e+00	1.226890e+03
1121.18	10642.6	1.0	0.000e+00	1.986180e+03
1430.65	10642.6	1.0	0.000e+00	2.321136e+03
307.386	10957.8	0.0	0.000e+00	7.003402e+00
616.855	10957.8	0.0	0.000e+00	6.106798e+02
926.325	10957.8	1.0	0.000e+00	1.692098e+03
1235.8	10957.8	1.0	0.000e+00	2.296235e+03
1545.27	10957.8	1.0	4.082e-02	2.522964e+03
422.004	11273.1	0.0	0.000e+00	9.499332e+01
731.474	11273.1	0.0	0.000e+00	1.144151e+03
1040.94	11273.1	1.0	0.000e+00	2.118961e+03
1350.41	11273.1	1.0	0.000e+00	2.570889e+03
1659.88	11273.1	1.0	1.294e-01	2.703033e+03
536.622	11588.4	0.0	0.000e+00	4.224291e+02
846.092	11588.4	0.0	0.000e+00	1.705579e+03
1155.56	11588.4	1.0	0.000e+00	2.500008e+03
1465.03	11588.4	1.0	0.000e+00	2.811068e+03
341.771	11903.6	0.0	0.000e+00	2.408624e+01
651.241	11903.6	0.0	0.000e+00	9.911984e+02
960.711	11903.6	1.0	0.000e+00	2.229637e+03
1270.18	11903.6	1.0	0.000e+00	2.832235e+03
1579.65	11903.6	1.0	6.493e-02	3.021575e+03
456.39	12218.9	0.0	0.000e+00	2.291592e+02
765.859	12218.9	0.0	0.000e+00	1.652208e+03
1075.33	12218.9	1.0	0.000e+00	2.698348e+03
1384.8	12218.9	1.0	0.000e+00	3.119109e+03
1694.27	12218.9	1.0	1.447e-01	3.207619e+03
571.008	12534.1	0.0	0.000e+00	7.651424e+02
880.478	12534.1	0.0	0.000e+00	2.302085e+03
1189.95	12534.1	1.0	0.000e+00	3.102909e+03
1499.42	12534.1	1.0	0.000e+00	3.368810e+03
376.157	12849.4	0.0	0.000e+00	8.543720e+01
685.627	12849.4	0.0	0.000e+00	1.517515e+03
995.096	12849.4	1.0	0.000e+00	2.883130e+03
1304.57	12849.4	1.0	0.000e+00	3.450265e+03
1614.04	12849.4	1.0	8.397e-02	3.584990e+03
490.775	13164.7	0.0	0.000e+00	4.854884e+02
800.245	13164.7	0.0	0.000e+00	2.312209e+03
1109.71	13164.7	1.0	0.000e+00	3.380526e+03
1419.18	13164.7	1.0	0.000e+00	3.746365e+03
295.924	13479.9	0.0	0.000e+00	5.892998e+01
605.394	13479.9	0.0	0.000e+00	1.276517e+03
914.863	13479.9	1.0	0.000e+00	3.033905e+03
1224.33	13479.9	1.0	0.000e+00	3.803141e+03
1533.8	13479.9	1.0	1.865e-03	3.999119e+03
410.542	13795.2	0.0	0.000e+00	2.325144e+02
720.012	13795.2	0.0	0.000e+00	2.229018e+03
1029.48	13795.2	1.0	0.000e+00	3.658026e+03
1338.95	13795.2	1.0	0.000e+00	4.157990e+03
1648.42	13795.2	1.0	9.550e-02	4.217193e+03
525.161	14110.4	0.0	0.000e+00	9.324360e+02
834.631	14110.4	0.0	0.000e+00	3.133830e+03
1144.1	14110.4	1.0	0.000e+00	4.178138e+03
1453.57	14110.4	1.0	0.000e+00	4.456392e+03
330.309	14425.7	0.0	0.000e+00	7.045283e+01
639.779	14425.7	0.0	0.000e+00	2.004326e+03
949.249	14425.7	1.0	0.000e+00	3.920483e+03
1258.72	14425.7	1.0	0.000e+00	4.606574e+03
1568.19	14425.7	1.0	1.145e-02	4.707905e+03
444.928	14741.0	0.0	0.000e+00	5.382005e+02
754.398	14741.0	0.0	0.000e+00	3.140934e+03
1063.87	14741.0	1.0	0.000e+00	4.568214e+03
1373.34	14741.0	1.0	0.000e+00	4.962048e+03
1682.81	14741.0	1.0	1.084e-01	4.922580e+03
559.546	15056.2	0.0	0.000e+00	1.625475e+03
869.016	15056.2	0.0	0.000e+00	4.145700e+03
1178.49	15056.2	1.0	0.000e+00	5.095922e+03
1487.96	15056.2	1.0	0.000e+00	5.255250e+03
364.695	15371.5	0.0	0.000e+00	2.253020e+02
674.165	15371.5	0.0	0.000e+00	2.999917e+03
983.635	15371.5	1.0	0.000e+00	4.966831e+03
1293.1	15371.5	1.0	0.000e+00	5.521878e+03
1602.57	15371.5	1.0	2.664e-02	5.499215e+03
479.313	15686.7	0.0	0.000e+00	1.109201e+03
788.783	15686.7	0.0	0.000e+00	4.283754e+03
1098.25	15686.7	1.0	0.000e+00	5.624982e+03
1407.72	15686.7	1.0	0.000e+00	5.866322e+03
284.462	16002.0	0.0	0.000e+00	2.723771e+03
593.932	16002.0	0.0	0.000e+00	2.637255e+03
903.402	16002.0	1.0	0.000e+00	5.354218e+03
1212.87	16002.0	1.0	0.000e+00	6.144290e+03
1522.34	16002.0	1.0	0.000e+00	6.147568e+03
399.08	16317.3	0.0	0.000e+00	5.875559e+02
708.55	16317.3	0.0	0.000e+00	4.283351e+03
1018.02	16317.3	1.0	0.000e+00	6.192370e+03
1327.49	16317.3	1.0	0.000e+00	6.554264e+03
1636.96	16317.3	1.0	5.639e-02	6.377694e+03
513.699	16632.5	0.0	0.000e+00	2.041202e+03
823.169	16632.5	0.0	0.000e+00	5.689756e+03
1132.64	16632.5	1.0	0.000e+00	6.835467e+03
1442.11	16632.5	1.0	0.000e+00	6.878615e+03
318.847	16947.8	0.0	0.000e+00	2.289631e+02
628.317	16947.8	0.0	0.000e+00	4.044078e+03
937.787	16947.8	1.0	0.000e+00	6.778933e+03
1247.26	16947.8	1.0	0.000e+00	7.329945e+03
1556.73	16947.8	1.0	0.000e+00	7.137871e+03
433.466	17263.1	0.0	0.000e+00	1.292225e+03
742.936	17263.1	0.0	0.000e+00	5.896846e+03
1052.41	17263.1	1.0	0.000e+00	7.602081e+03
1361.88	17263.1	1.0	0.000e+00	7.711310e+03
1671.35	17263.1	1.0	8.067e-02	7.346264e+03
548.084	17578.3	0.0	0.000e+00	3.470190e+03
857.554	17578.3	0.0	0.000e+00	7.363539e+03
1167.02	17578.3	1.0	0.000e+00	8.210659e+03
1476.49	17578.3	1.0	0.000e+00	8.004256e+03
353.233	17893.6	0.0	0.000e+00	6.278785e+02
662.703	17893.6	0.0	0.000e+00	5.875500e+03
972.173	17893.6	1.0	0.000e+00	8.439604e+03
1281.64	17893.6	1.0	0.000e+00	8.661618e+03
1591.11	17893.6	1.0	0.000e+00	8.231250e+03
467.851	18208.8	0.0	0.000e+00	2.528824e+03
777.321	18208.8	0.0	0.000e+00	7.876756e+03
1086.79	18208.8	1.0	0.000e+00	9.208193e+03
1396.26	18208.8	1.0	0.000e+00	8.996183e+03
273.0 	18524.1	0.0	0.000e+00	2.364685e+06
582.47	18524.1	0.0	0.000e+00	5.463581e+03
891.94	18524.1	0.0	0.000e+00	9.329992e+03
1201.41	18524.1	1.0	0.000e+00	9.757077e+03
1510.88	18524.1	1.0	0.000e+00	9.248488e+03
387.618	18839.4	0.0	0.000e+00	1.504184e+03
697.088	18839.4	0.0	0.000e+00	8.202897e+03
1006.56	18839.4	1.0	0.000e+00	1.033965e+04
1316.03	18839.4	1.0	0.000e+00	1.014404e+04
1625.5	18839.4	1.0	0.000e+00	9.434103e+03
502.237	19154.6	0.0	0.000e+00	4.520794e+03
811.707	19154.6	0.0	0.000e+00	1.022864e+04
1121.18	19154.6	1.0	0.000e+00	1.102266e+04
1430.65	19154.6	1.0	0.000e+00	1.041968e+04
307.386	19469.9	0.0	0.000e+00	1.030369e+03
616.855	19469.9	0.0	0.000e+00	8.115634e+03
926.325	19469.9	1.0	0.000e+00	1.160411e+04
1235.8	19469.9	1.0	0.000e+00	1.148166e+04
1545.27	19469.9	1.0	0.000e+00	1.061169e+04
422.004	19785.1	0.0	0.000e+00	3.153271e+03
731.474	19785.1	0.0	0.000e+00	1.102882e+04
1040.94	19785.1	1.0	0.000e+00	1.249392e+04
1350.41	19785.1	1.0	0.000e+00	1.178612e+04
1659.88	19785.1	1.0	1.192e-02	1.074973e+04
536.622	20100.4	0.0	0.000e+00	7.393234e+03
846.092	20100.4	0.0	0.000e+00	1.298468e+04
1155.56	20100.4	1.0	0.000e+00	1.305207e+04
1465.03	20100.4	1.0	0.000e+00	1.198149e+04
341.771	20415.7	0.0	0.000e+00	1.819088e+03
651.241	20415.7	0.0	0.000e+00	1.151313e+04
960.711	20415.7	1.0	0.000e+00	1.419383e+04
1270.18	20415.7	1.0	0.000e+00	1.339115e+04
1579.65	20415.7	1.0	0.000e+00	1.210675e+04
456.39	20730.9	0.0	0.000e+00	5.883185e+03
765.859	20730.9	0.0	0.000e+00	1.438877e+04
1075.33	20730.9	1.0	0.000e+00	1.490550e+04
1384.8	20730.9	1.0	0.000e+00	1.359080e+04
1694.27	20730.9	1.0	4.642e-02	1.217627e+04
571.008	21046.2	0.0	0.000e+00	1.133578e+04
880.478	21046.2	0.0	0.000e+00	1.614348e+04
1189.95	21046.2	1.0	0.000e+00	1.530456e+04
1499.42	21046.2	1.0	0.000e+00	1.369291e+04
376.157	21361.4	0.0	0.000e+00	4.034761e+03
685.627	21361.4	0.0	0.000e+00	1.564556e+04
995.096	21361.4	1.0	0.000e+00	1.710793e+04
1304.57	21361.4	1.0	0.000e+00	1.549599e+04
1614.04	21361.4	1.0	0.000e+00	1.372924e+04
490.775	21676.7	0.0	0.000e+00	1.004208e+04
800.245	21676.7	0.0	0.000e+00	1.830876e+04
1109.71	21676.7	1.0	0.000e+00	1.759032e+04
1419.18	21676.7	1.0	0.000e+00	1.556114e+04
295.924	21992.0	0.0	0.000e+00	1.184349e+04
605.394	21992.0	0.0	0.000e+00	1.636271e+04
914.863	21992.0	1.0	0.000e+00	1.972174e+04
1224.33	21992.0	1.0	0.000e+00	1.777894e+04
1533.8	21992.0	1.0	0.000e+00	1.555609e+04
410.542	22307.2	0.0	0.000e+00	7.816332e+03
720.012	22307.2	0.0	0.000e+00	2.056740e+04
1029.48	22307.2	1.0	0.000e+00	2.035588e+04
1338.95	22307.2	1.0	0.000e+00	1.779946e+04
1648.42	22307.2	1.0	0.000e+00	1.549266e+04
525.161	22622.5	0.0	0.000e+00	1.593049e+04
834.631	22622.5	0.0	0.000e+00	2.277535e+04
1144.1	22622.5	1.0	0.000e+00	2.054182e+04
1453.57	22622.5	1.0	0.000e+00	1.771101e+04
330.309	22937.8	0.0	0.000e+00	5.788949e+03
639.779	22937.8	0.0	0.000e+00	2.253992e+04
949.249	22937.8	1.0	0.000e+00	2.371091e+04
1258.72	22937.8	1.0	0.000e+00	2.048941e+04
1568.19	22937.8	1.0	0.000e+00	1.756453e+04
444.928	23253.0	0.0	0.000e+00	1.383745e+04
754.398	23253.0	0.0	0.000e+00	2.624618e+04
1063.87	23253.0	1.0	0.000e+00	2.394259e+04
1373.34	23253.0	1.0	0.000e+00	2.029577e+04
1682.81	23253.0	1.0	0.000e+00	1.739679e+04
559.546	23568.3	0.0	0.000e+00	2.357483e+04
869.016	23568.3	0.0	0.000e+00	2.778932e+04
1178.49	23568.3	1.0	0.000e+00	2.377997e+04
1487.96	23568.3	1.0	0.000e+00	2.004014e+04
364.695	23883.5	0.0	0.000e+00	1.123101e+04
674.165	23883.5	0.0	0.000e+00	2.989412e+04
983.635	23883.5	1.0	0.000e+00	2.813213e+04
1293.1	23883.5	1.0	0.000e+00	2.342813e+04
1602.57	23883.5	1.0	0.000e+00	1.974181e+04
479.313	24198.8	0.0	0.000e+00	2.270879e+04
788.783	24198.8	0.0	0.000e+00	3.268217e+04
1098.25	24198.8	1.0	0.000e+00	2.784844e+04
1407.72	24198.8	1.0	0.000e+00	2.300429e+04
284.462	24514.1	0.0	0.000e+00	9.768529e+05
593.932	24514.1	0.0	0.000e+00	3.305873e+04
903.402	24514.1	1.0	0.000e+00	3.335401e+04
1212.87	24514.1	1.0	0.000e+00	2.730224e+04
1522.34	24514.1	1.0	0.000e+00	2.253953e+04
399.08	24829.3	0.0	0.000e+00	2.013728e+04
708.55	24829.3	0.0	0.000e+00	3.834012e+04
1018.02	24829.3	1.0	0.000e+00	3.295433e+04
1327.49	24829.3	1.0	0.000e+00	2.661975e+04
1636.96	24829.3	1.0	0.000e+00	2.208263e+04
513.699	25144.6	0.0	0.000e+00	3.455618e+04
823.169	25144.6	0.0	0.000e+00	3.984677e+04
1132.64	25144.6	1.0	0.000e+00	3.211331e+04
1442.11	25144.6	1.0	0.000e+00	2.591056e+04
318.847	25459.8	0.0	0.000e+00	2.154089e+04
628.317	25459.8	0.0	0.000e+00	4.433969e+04
937.787	25459.8	1.0	0.000e+00	3.945094e+04
1247.26	25459.8	1.0	0.000e+00	3.108322e+04
1556.73	25459.8	1.0	0.000e+00	2.523241e+04
433.466	25775.1	0.0	0.000e+00	3.344864e+04
742.936	25775.1	0.0	0.000e+00	4.785244e+04
1052.41	25775.1	1.0	0.000e+00	3.821170e+04
1361.88	25775.1	1.0	0.000e+00	3.005672e+04
1671.35	25775.1	1.0	0.000e+00	2.457578e+04
548.084	26090.4	0.0	0.000e+00	4.954572e+04
857.554	26090.4	0.0	0.000e+00	4.773232e+04
1167.02	26090.4	1.0	0.000e+00	3.669019e+04
1476.49	26090.4	1.0	0.000e+00	2.904427e+04
353.233	26405.6	0.0	0.000e+00	3.331441e+04
662.703	26405.6	0.0	0.000e+00	5.725306e+04
972.173	26405.6	1.0	0.000e+00	4.604011e+04
1281.64	26405.6	1.0	0.000e+00	3.517436e+04
1591.11	26405.6	1.0	0.000e+00	2.809969e+04
467.851	26720.9	0.0	0.000e+00	5.202332e+04
777.321	26720.9	0.0	0.000e+00	5.830629e+04
1086.79	26720.9	1.0	0.000e+00	4.387623e+04
1396.26	26720.9	1.0	0.000e+00	3.371056e+04
273.0 	27036.1	0.0	0.000e+00	2.521154e+09
582.47	27036.1	0.0	0.000e+00	6.733712e+04
891.94	27036.1	1.0	0.000e+00	5.629938e+04
1201.41	27036.1	1.0	0.000e+00	4.163132e+04
1510.88	27036.1	1.0	0.000e+00	3.239452e+04
387.618	27351.4	0.0	0.000e+00	5.374786e+04
697.088	27351.4	0.0	0.000e+00	7.163598e+04
1006.56	27351.4	1.0	0.000e+00	5.317039e+04
1316.03	27351.4	1.0	0.000e+00	3.951984e+04
1625.5	27351.4	1.0	0.000e+00	3.117440e+04
502.237	27666.7	0.0	0.000e+00	7.613978e+04
811.707	27666.7	0.0	0.000e+00	6.971321e+04
1121.18	27666.7	1.0	0.000e+00	4.990515e+04
1430.65	27666.7	1.0	0.000e+00	3.763928e+04
307.386	27981.9	0.0	0.000e+00	1.150816e+05
616.855	27981.9	0.0	0.000e+00	8.768705e+04
926.325	27981.9	1.0	0.000e+00	6.542480e+04
1235.8	27981.9	1.0	0.000e+00	4.690341e+04
1545.27	27981.9	1.0	0.000e+00	3.593115e+04
422.004	28297.2	0.0	0.000e+00	8.299480e+04
731.474	28297.2	0.0	0.000e+00	8.736818e+04
1040.94	28297.2	1.0	0.000e+00	6.079583e+04
1350.41	28297.2	1.0	0.000e+00	4.418134e+04
1659.88	28297.2	1.0	0.000e+00	3.444330e+04
536.622	28612.4	0.0	0.000e+00	1.051221e+05
846.092	28612.4	0.0	0.000e+00	8.186199e+04
1155.56	28612.4	1.0	0.000e+00	5.637505e+04
1465.03	28612.4	1.0	0.000e+00	4.178245e+04
341.771	28927.7	0.0	0.000e+00	1.062875e+05
651.241	28927.7	0.0	0.000e+00	1.101692e+05
960.711	28927.7	1.0	0.000e+00	7.522716e+04
1270.18	28927.7	1.0	0.000e+00	5.246377e+04
1579.65	28927.7	1.0	0.000e+00	3.971570e+04
456.39	29243.0	0.0	0.000e+00	1.220071e+05
765.859	29243.0	0.0	0.000e+00	1.042720e+05
1075.33	29243.0	1.0	0.000e+00	6.881396e+04
1384.8	29243.0	1.0	0.000e+00	4.912990e+04
1694.27	29243.0	1.0	0.000e+00	3.788023e+04
571.008	29558.2	0.0	0.000e+00	1.382891e+05
880.478	29558.2	1.0	0.000e+00	9.485112e+04
1189.95	29558.2	1.0	0.000e+00	6.323684e+04
1499.42	29558.2	1.0	0.000e+00	4.620618e+04
376.157	29873.5	0.0	0.000e+00	1.510047e+05
685.627	29873.5	0.0	0.000e+00	1.344853e+05
995.096	29873.5	1.0	0.000e+00	8.548405e+04
1304.57	29873.5	1.0	0.000e+00	5.840050e+04
1614.04	29873.5	1.0	0.000e+00	4.368555e+04
490.775	30188.8	0.0	0.000e+00	1.702850e+05
800.245	30188.8	0.0	0.000e+00	1.219662e+05
1109.71	30188.8	1.0	0.000e+00	7.734861e+04
1419.18	30188.8	1.0	0.000e+00	5.430295e+04
295.924	30504.0	0.0	0.000e+00	1.834101e+06
605.394	30504.0	0.0	0.000e+00	1.747521e+05
914.863	30504.0	1.0	0.000e+00	1.085362e+05
1224.33	30504.0	1.0	0.000e+00	7.039642e+04
1533.8	30504.0	1.0	0.000e+00	5.088004e+04
410.542	30819.3	0.0	0.000e+00	2.127553e+05
720.012	30819.3	0.0	0.000e+00	1.599705e+05
1029.48	30819.3	1.0	0.000e+00	9.637680e+04
1338.95	30819.3	1.0	0.000e+00	6.466386e+04
1648.42	30819.3	1.0	0.000e+00	4.790852e+04
525.161	31134.5	0.0	0.000e+00	2.260881e+05
834.631	31134.5	0.0	0.000e+00	1.406777e+05
1144.1	31134.5	1.0	0.000e+00	8.621870e+04
1453.57	31134.5	1.0	0.000e+00	5.981325e+04
330.309	31449.8	0.0	0.000e+00	3.759732e+05
639.779	31449.8	0.0	0.000e+00	2.135942e+05
949.249	31449.8	1.0	0.000e+00	1.226200e+05
1258.72	31449.8	1.0	0.000e+00	7.799051e+04
1568.19	31449.8	1.0	0.000e+00	5.574419e+04
444.928	31765.1	0.0	0.000e+00	2.929965e+05
754.398	31765.1	0.0	0.000e+00	1.867274e+05
1063.87	31765.1	1.0	0.000e+00	1.077752e+05
1373.34	31765.1	1.0	0.000e+00	7.116766e+04
1682.81	31765.1	1.0	0.000e+00	5.235361e+04
559.546	32080.3	0.0	0.000e+00	2.873389e+05
869.016	32080.3	0.0	0.000e+00	1.598050e+05
1178.49	32080.3	1.0	0.000e+00	9.561385e+04
1487.96	32080.3	1.0	0.000e+00	6.560478e+04
364.695	32395.6	0.0	0.000e+00	4.514012e+05
674.165	32395.6	0.0	0.000e+00	2.535835e+05
983.635	32395.6	1.0	0.000e+00	1.374616e+05
1293.1	32395.6	1.0	0.000e+00	8.584842e+04
1602.57	32395.6	1.0	0.000e+00	6.091007e+04
479.313	32710.8	0.0	0.000e+00	3.882729e+05
788.783	32710.8	0.0	0.000e+00	2.142434e+05
1098.25	32710.8	1.0	0.000e+00	1.194349e+05
1407.72	32710.8	1.0	0.000e+00	7.804864e+04
284.462	33026.1	0.0	0.000e+00	2.681689e+08
593.932	33026.1	0.0	0.000e+00	3.519277e+05
903.402	33026.1	1.0	0.000e+00	1.797805e+05
1212.87	33026.1	1.0	0.000e+00	1.054156e+05
1522.34	33026.1	1.0	0.000e+00	7.159846e+04
399.08	33341.4	0.0	0.000e+00	5.680495e+05
708.55	33341.4	0.0	0.000e+00	2.948417e+05
1018.02	33341.4	1.0	0.000e+00	1.525321e+05
1327.49	33341.4	1.0	0.000e+00	9.415734e+04
1636.96	33341.4	1.0	0.000e+00	6.632347e+04
513.699	33656.6	0.0	0.000e+00	4.943430e+05
823.169	33656.6	0.0	0.000e+00	2.418117e+05
1132.64	33656.6	1.0	0.000e+00	1.317247e+05
1442.11	33656.6	1.0	0.000e+00	8.514878e+04
318.847	33971.9	0.0	0.000e+00	1.630425e+06
628.317	33971.9	0.0	0.000e+00	4.168567e+05
937.787	33971.9	1.0	0.000e+00	2.002174e+05
1247.26	33971.9	1.0	0.000e+00	1.154180e+05
1556.73	33971.9	1.0	0.000e+00	7.792604e+04
433.466	34287.1	0.0	0.000e+00	7.241891e+05
742.936	34287.1	0.0	0.000e+00	3.364612e+05
1052.41	34287.1	1.0	0.000e+00	1.683046e+05
1361.88	34287.1	1.0	0.000e+00	1.028100e+05
1671.35	34287.1	1.0	0.000e+00	7.191151e+04
548.084	34602.4	0.0	0.000e+00	6.040646e+05
857.554	34602.4	0.0	0.000e+00	2.701992e+05
1167.02	34602.4	1.0	0.000e+00	1.441867e+05
1476.49	34602.4	1.0	0.000e+00	9.264488e+04
353.233	34917.7	0.0	0.000e+00	1.445501e+06
662.703	34917.7	0.0	0.000e+00	4.825833e+05
972.173	34917.7	1.0	0.000e+00	2.206223e+05
1281.64	34917.7	1.0	0.000e+00	1.259633e+05
1591.11	34917.7	1.0	0.000e+00	8.444194e+04
467.851	35232.9	0.0	0.000e+00	9.068037e+05
777.321	35232.9	0.0	0.000e+00	3.769104e+05
1086.79	35232.9	1.0	0.000e+00	1.844603e+05
1396.26	35232.9	1.0	0.000e+00	1.116297e+05
273.0 	35548.2	0.0	0.000e+00	1.955356e+12
582.47	35548.2	0.0	0.000e+00	7.153409e+05
891.94	35548.2	1.0	0.000e+00	2.987919e+05
1201.41	35548.2	1.0	0.000e+00	1.572567e+05
1510.88	35548.2	1.0	0.000e+00	1.004399e+05
387.618	35863.5	0.0	0.000e+00	1.600620e+06
697.088	35863.5	0.0	0.000e+00	5.455499e+05
1006.56	35863.5	1.0	0.000e+00	2.417836e+05
1316.03	35863.5	1.0	0.000e+00	1.366572e+05
1625.5	35863.5	1.0	0.000e+00	9.131070e+04
502.237	36178.7	0.0	0.000e+00	1.098562e+06
811.707	36178.7	0.0	0.000e+00	4.179129e+05
1121.18	36178.7	1.0	0.000e+00	2.006251e+05
1430.65	36178.7	1.0	0.000e+00	1.209256e+05
307.386	36494.0	0.0	0.000e+00	1.049687e+07
616.855	36494.0	0.0	0.000e+00	8.238204e+05
926.325	36494.0	1.0	0.000e+00	3.266387e+05
1235.8	36494.0	1.0	0.000e+00	1.706928e+05
1545.27	36494.0	1.0	0.000e+00	1.083934e+05
422.004	36809.2	0.0	0.000e+00	1.849834e+06
731.474	36809.2	0.0	0.000e+00	6.080288e+05
1040.94	36809.2	1.0	0.000e+00	2.632192e+05
1350.41	36809.2	1.0	0.000e+00	1.478840e+05
1659.88	36809.2	1.0	0.000e+00	9.844416e+04
536.622	37124.5	0.0	0.000e+00	1.292679e+06
846.092	37124.5	0.0	0.000e+00	4.569891e+05
1155.56	37124.5	1.0	0.000e+00	2.174817e+05
1465.03	37124.5	1.0	0.000e+00	1.303556e+05
341.771	37439.8	0.0	0.000e+00	5.137421e+06
651.241	37439.8	0.0	0.000e+00	9.236712e+05
960.711	37439.8	1.0	0.000e+00	3.551470e+05
1270.18	37439.8	1.0	0.000e+00	1.841252e+05
1579.65	37439.8	1.0	0.000e+00	1.167425e+05
456.39	37755.0	0.0	0.000e+00	2.168440e+06
765.859	37755.0	0.0	0.000e+00	6.682062e+05
1075.33	37755.0	1.0	0.000e+00	2.842364e+05
1384.8	37755.0	1.0	0.000e+00	1.594393e+05
1694.27	37755.0	1.0	0.000e+00	1.057186e+05
571.008	38070.3	0.0	0.000e+00	1.471643e+06
880.478	38070.3	1.0	0.000e+00	4.965006e+05
1189.95	38070.3	1.0	0.000e+00	2.346436e+05
1499.42	38070.3	1.0	0.000e+00	1.402568e+05
376.157	38385.5	0.0	0.000e+00	4.758650e+06
685.627	38385.5	0.0	0.000e+00	1.020123e+06
995.096	38385.5	1.0	0.000e+00	3.826419e+05
1304.57	38385.5	1.0	0.000e+00	1.982012e+05
1614.04	38385.5	1.0	0.000e+00	1.252285e+05
490.775	38700.8	0.0	0.000e+00	2.501000e+06
800.245	38700.8	0.0	0.000e+00	7.232270e+05
1109.71	38700.8	1.0	0.000e+00	3.059720e+05
1419.18	38700.8	1.0	0.000e+00	1.710207e+05
295.924	39016.1	0.0	0.000e+00	2.336852e+08
605.394	39016.1	0.0	0.000e+00	1.640655e+06
914.863	39016.1	1.0	0.000e+00	5.351790e+05
1224.33	39016.1	1.0	0.000e+00	2.515828e+05
1533.8	39016.1	1.0	0.000e+00	1.504542e+05
410.542	39331.3	0.0	0.000e+00	4.951647e+06
720.012	39331.3	0.0	0.000e+00	1.105303e+06
1029.48	39331.3	1.0	0.000e+00	4.109095e+05
1338.95	39331.3	1.0	0.000e+00	2.125817e+05
1648.42	39331.3	1.0	0.000e+00	1.341344e+05
525.161	39646.6	0.0	0.000e+00	2.804197e+06
834.631	39646.6	0.0	0.000e+00	7.779713e+05
1144.1	39646.6	1.0	0.000e+00	3.271579e+05
1453.57	39646.6	1.0	0.000e+00	1.831726e+05
330.309	39961.8	0.0	0.000e+00	2.041334e+07
639.779	39961.8	0.0	0.000e+00	1.791910e+06
949.249	39961.8	1.0	0.000e+00	5.711720e+05
1258.72	39961.8	1.0	0.000e+00	2.692002e+05
1568.19	39961.8	1.0	0.000e+00	1.606948e+05
444.928	40277.1	0.0	0.000e+00	5.369140e+06
754.398	40277.1	0.0	0.000e+00	1.187313e+06
1063.87	40277.1	1.0	0.000e+00	4.390040e+05
1373.34	40277.1	1.0	0.000e+00	2.268514e+05
1682.81	40277.1	1.0	0.000e+00	1.433087e+05
559.546	40592.4	0.0	0.000e+00	3.084886e+06
869.016	40592.4	1.0	0.000e+00	8.272505e+05
1178.49	40592.4	1.0	0.000e+00	3.491488e+05
1487.96	40592.4	1.0	0.000e+00	1.956143e+05
364.695	40907.6	0.0	0.000e+00	1.539911e+07
674.165	40907.6	0.0	0.000e+00	1.916869e+06
983.635	40907.6	1.0	0.000e+00	6.079584e+05
1293.1	40907.6	1.0	0.000e+00	2.865177e+05
1602.57	40907.6	1.0	0.000e+00	1.714425e+05
479.313	41222.9	0.0	0.000e+00	5.802914e+06
788.783	41222.9	0.0	0.000e+00	1.262272e+06
1098.25	41222.9	1.0	0.000e+00	4.656268e+05
1407.72	41222.9	1.0	0.000e+00	2.417333e+05
284.462	41538.2	0.0	0.000e+00	6.023315e+10
593.932	41538.2	0.0	0.000e+00	3.323619e+06
903.402	41538.2	1.0	0.000e+00	8.766728e+05
1212.87	41538.2	1.0	0.000e+00	3.712308e+05
1522.34	41538.2	1.0	0.000e+00	2.080100e+05
399.08	41853.4	0.0	0.000e+00	1.381206e+07
708.55	41853.4	0.0	0.000e+00	2.032583e+06
1018.02	41853.4	1.0	0.000e+00	6.419627e+05
1327.49	41853.4	1.0	0.000e+00	3.045791e+05
1636.96	41853.4	1.0	0.000e+00	1.824606e+05
513.699	42168.7	0.0	0.000e+00	6.233465e+06
823.169	42168.7	0.0	0.000e+00	1.325825e+06
1132.64	42168.7	1.0	0.000e+00	4.932393e+05
1442.11	42168.7	1.0	0.000e+00	2.564544e+05
318.847	42483.9	0.0	0.000e+00	1.041474e+08
628.317	42483.9	0.0	0.000e+00	3.499682e+06
937.787	42483.9	1.0	0.000e+00	9.235455e+05
1247.26	42483.9	1.0	0.000e+00	3.924539e+05
1556.73	42483.9	1.0	0.000e+00	2.209516e+05
433.466	42799.2	0.0	0.000e+00	1.367714e+07
742.936	42799.2	0.0	0.000e+00	2.132446e+06
1052.41	42799.2	1.0	0.000e+00	6.769143e+05
1361.88	42799.2	1.0	0.000e+00	3.228345e+05
1671.35	42799.2	1.0	0.000e+00	1.934710e+05
548.084	43114.5	0.0	0.000e+00	6.540597e+06
857.554	43114.5	1.0	0.000e+00	1.388573e+06
1167.02	43114.5	1.0	0.000e+00	5.193123e+05
1476.49	43114.5	1.0	0.000e+00	2.718402e+05
353.233	43429.7	0.0	0.000e+00	5.360907e+07
662.703	43429.7	0.0	0.000e+00	3.654081e+06
972.173	43429.7	1.0	0.000e+00	9.650792e+05
1281.64	43429.7	1.0	0.000e+00	4.146174e+05
1591.11	43429.7	1.0	0.000e+00	2.338132e+05
467.851	43745.0	0.0	0.000e+00	1.392452e+07
777.321	43745.0	0.0	0.000e+00	2.207965e+06
1086.79	43745.0	1.0	0.000e+00	7.110434e+05
1396.26	43745.0	1.0	0.000e+00	3.406059e+05
273.0 	44060.2	0.0	0.000e+00	1.198656e+15
582.47	44060.2	0.0	0.000e+00	6.793827e+06
891.94	44060.2	1.0	0.000e+00	1.446063e+06
1201.41	44060.2	1.0	0.000e+00	5.464198e+05
1510.88	44060.2	1.0	0.000e+00	2.874560e+05
387.618	44375.5	0.0	0.000e+00	4.134460e+07
697.088	44375.5	0.0	0.000e+00	3.753001e+06
1006.56	44375.5	1.0	0.000e+00	1.007697e+06
1316.03	44375.5	1.0	0.000e+00	4.358691e+05
1625.5	44375.5	1.0	0.000e+00	2.472646e+05
502.237	44690.8	0.0	0.000e+00	1.407347e+07
811.707	44690.8	0.0	0.000e+00	2.280567e+06
1121.18	44690.8	1.0	0.000e+00	7.421496e+05
1430.65	44690.8	1.0	0.000e+00	3.591290e+05
307.386	45006.0	0.0	0.000e+00	8.145060e+08
616.855	45006.0	0.0	0.000e+00	6.959572e+06
926.325	45006.0	1.0	0.000e+00	1.493079e+06
1235.8	45006.0	1.0	0.000e+00	5.733036e+05
1545.27	45006.0	1.0	0.000e+00	3.027714e+05
422.004	45321.3	0.0	0.000e+00	3.620159e+07
731.474	45321.3	0.0	0.000e+00	3.841738e+06
1040.94	45321.3	1.0	0.000e+00	1.048424e+06
1350.41	45321.3	1.0	0.000e+00	4.580689e+05
1659.88	45321.3	1.0	0.000e+00	2.609536e+05
536.622	45636.5	0.0	0.000e+00	1.421341e+07
846.092	45636.5	1.0	0.000e+00	2.332553e+06
1155.56	45636.5	1.0	0.000e+00	7.746863e+05
1465.03	45636.5	1.0	0.000e+00	3.771277e+05
341.771	45951.8	0.0	0.000e+00	2.135068e+08
651.241	45951.8	0.0	0.000e+00	7.004602e+06
960.711	45951.8	1.0	0.000e+00	1.541329e+06
1270.18	45951.8	1.0	0.000e+00	5.984188e+05
1579.65	45951.8	1.0	0.000e+00	3.187528e+05
456.39	46267.1	0.0	0.000e+00	3.415943e+07
765.859	46267.1	0.0	0.000e+00	3.905822e+06
1075.33	46267.1	1.0	0.000e+00	1.083910e+06
1384.8	46267.1	1.0	0.000e+00	4.802939e+05
1694.27	46267.1	1.0	0.000e+00	2.744531e+05
571.008	46582.3	0.0	0.000e+00	1.409291e+07
880.478	46582.3	1.0	0.000e+00	2.385939e+06
1189.95	46582.3	1.0	0.000e+00	8.065316e+05
1499.42	46582.3	1.0	0.000e+00	3.959606e+05
376.157	46897.6	0.0	0.000e+00	1.307683e+08
685.627	46897.6	0.0	0.000e+00	7.034740e+06
995.096	46897.6	1.0	0.000e+00	1.580285e+06
1304.57	46897.6	1.0	0.000e+00	6.248194e+05
1614.04	46897.6	1.0	0.000e+00	3.344034e+05
490.775	47212.9	0.0	0.000e+00	3.281244e+07
800.245	47212.9	0.0	0.000e+00	3.928867e+06
1109.71	47212.9	1.0	0.000e+00	1.121105e+06
1419.18	47212.9	1.0	0.000e+00	5.014120e+05
295.924	47528.1	0.0	0.000e+00	2.547005e+10
605.394	47528.1	0.0	0.000e+00	1.394018e+07
914.863	47528.1	1.0	0.000e+00	2.431780e+06
1224.33	47528.1	1.0	0.000e+00	8.354378e+05
1533.8	47528.1	1.0	0.000e+00	4.149269e+05
410.542	47843.4	0.0	0.000e+00	1.017157e+08
720.012	47843.4	0.0	0.000e+00	6.975978e+06
1029.48	47843.4	1.0	0.000e+00	1.621885e+06
1338.95	47843.4	1.0	0.000e+00	6.510140e+05
1648.42	47843.4	1.0	0.000e+00	3.507835e+05
525.161	48158.6	0.0	0.000e+00	3.128304e+07
834.631	48158.6	1.0	0.000e+00	3.957300e+06
1144.1	48158.6	1.0	0.000e+00	1.153441e+06
1453.57	48158.6	1.0	0.000e+00	5.236323e+05
330.309	48473.9	0.0	0.000e+00	9.586227e+08
639.779	48473.9	0.0	0.000e+00	1.367596e+07
949.249	48473.9	1.0	0.000e+00	2.460455e+06
1258.72	48473.9	1.0	0.000e+00	8.658689e+05
1568.19	48473.9	1.0	0.000e+00	4.331650e+05
444.928	48789.2	0.0	0.000e+00	8.766422e+07
754.398	48789.2	0.0	0.000e+00	6.926024e+06
1063.87	48789.2	1.0	0.000e+00	1.660694e+06
1373.34	48789.2	1.0	0.000e+00	6.754220e+05
1682.81	48789.2	1.0	0.000e+00	3.673435e+05
559.546	49104.4	0.0	0.000e+00	2.996790e+07
869.016	49104.4	1.0	0.000e+00	3.953816e+06
1178.49	49104.4	1.0	0.000e+00	1.188057e+06
1487.96	49104.4	1.0	0.000e+00	5.458623e+05
364.695	49419.7	0.0	0.000e+00	4.599841e+08
674.165	49419.7	0.0	0.000e+00	1.324598e+07
983.635	49419.7	1.0	0.000e+00	2.494795e+06
1293.1	49419.7	1.0	0.000e+00	8.934872e+05
1602.57	49419.7	1.0	0.000e+00	4.523448e+05
479.313	49734.9	0.0	0.000e+00	7.788051e+07
788.783	49734.9	0.0	0.000e+00	6.850141e+06
1098.25	49734.9	1.0	0.000e+00	1.690874e+06
1407.72	49734.9	1.0	0.000e+00	7.011059e+05
284.462	50050.2	0.0	0.000e+00	1.152526e+13
593.932	50050.2	0.0	0.000e+00	2.855579e+07
903.402	50050.2	1.0	0.000e+00	3.960680e+06
1212.87	50050.2	1.0	0.000e+00	1.221519e+06
1522.34	50050.2	1.0	0.000e+00	5.669409e+05
399.08	50365.5	0.0	0.000e+00	2.977422e+08
708.55	50365.5	0.0	0.000e+00	1.286577e+07
1018.02	50365.5	1.0	0.000e+00	2.514625e+06
1327.49	50365.5	1.0	0.000e+00	9.229206e+05
1636.96	50365.5	1.0	0.000e+00	4.716351e+05
513.699	50680.7	0.0	0.000e+00	7.104724e+07
823.169	50680.7	1.0	0.000e+00	6.720964e+06
1132.64	50680.7	1.0	0.000e+00	1.725125e+06
1442.11	50680.7	1.0	0.000e+00	7.250415e+05
318.847	50996.0	0.0	0.000e+00	5.789942e+09
628.317	50996.0	0.0	0.000e+00	2.687044e+07
937.787	50996.0	1.0	0.000e+00	3.960290e+06
1247.26	50996.0	1.0	0.000e+00	1.250248e+06
1556.73	50996.0	1.0	0.000e+00	5.891507e+05
433.466	51311.2	0.0	0.000e+00	2.312033e+08
742.936	51311.2	0.0	0.000e+00	1.245981e+07
1052.41	51311.2	1.0	0.000e+00	2.541175e+06
1361.88	51311.2	1.0	0.000e+00	9.518779e+05
1671.35	51311.2	1.0	0.000e+00	4.901500e+05
548.084	51626.5	0.0	0.000e+00	6.439035e+07
857.554	51626.5	1.0	0.000e+00	6.620480e+06
1167.02	51626.5	1.0	0.000e+00	1.751650e+06
1476.49	51626.5	1.0	0.000e+00	7.504290e+05
353.233	51941.8	0.0	0.000e+00	1.747522e+09
662.703	51941.8	0.0	0.000e+00	2.541257e+07
972.173	51941.8	1.0	0.000e+00	3.935873e+06
1281.64	51941.8	1.0	0.000e+00	1.281540e+06
1591.11	51941.8	1.0	0.000e+00	6.100837e+05
467.851	52257.0	0.0	0.000e+00	1.927863e+08
777.321	52257.0	0.0	0.000e+00	1.196733e+07
1086.79	52257.0	1.0	0.000e+00	2.564795e+06
1396.26	52257.0	1.0	0.000e+00	9.779317e+05
273.0 	52572.3	0.0	0.000e+00	6.102658e+17
582.47	52572.3	0.0	0.000e+00	5.897087e+07
891.94	52572.3	1.0	0.000e+00	6.513848e+06
1201.41	52572.3	1.0	0.000e+00	1.782483e+06
1510.88	52572.3	1.0	0.000e+00	7.756578e+05
387.618	52887.6	0.0	0.000e+00	9.500342e+08
697.088	52887.6	0.0	0.000e+00	2.381332e+07
1006.56	52887.6	1.0	0.000e+00	3.926659e+06
1316.03	52887.6	1.0	0.000e+00	1.308445e+06
1625.5	52887.6	1.0	0.000e+00	6.322691e+05
502.237	53202.8	0.0	0.000e+00	1.636782e+08
811.707	53202.8	1.0	0.000e+00	1.155721e+07
1121.18	53202.8	1.0	0.000e+00	2.575974e+06
1430.65	53202.8	1.0	0.000e+00	1.005894e+06
307.386	53518.1	0.0	0.000e+00	5.529421e+10
616.855	53518.1	0.0	0.000e+00	5.398850e+07
926.325	53518.1	1.0	0.000e+00	6.371581e+06
1235.8	53518.1	1.0	0.000e+00	1.811930e+06
1545.27	53518.1	1.0	0.000e+00	7.989967e+05
422.004	53833.3	0.0	0.000e+00	6.365681e+08
731.474	53833.3	0.0	0.000e+00	2.247455e+07
1040.94	53833.3	1.0	0.000e+00	3.914671e+06
1350.41	53833.3	1.0	0.000e+00	1.338287e+06
1659.88	53833.3	1.0	0.000e+00	6.544558e+05
536.622	54148.6	0.0	0.000e+00	1.426766e+08
846.092	54148.6	1.0	0.000e+00	1.109257e+07
1155.56	54148.6	1.0	0.000e+00	2.595418e+06
1465.03	54148.6	1.0	0.000e+00	1.031096e+06
341.771	54463.9	0.0	0.000e+00	7.824520e+09
651.241	54463.9	0.0	0.000e+00	4.899145e+07
960.711	54463.9	1.0	0.000e+00	6.262481e+06
1270.18	54463.9	1.0	0.000e+00	1.834171e+06
1579.65	54463.9	1.0	0.000e+00	8.238174e+05
456.39	54779.1	0.0	0.000e+00	4.872181e+08
765.859	54779.1	2.0	0.000e+00	2.121346e+07
1075.33	54779.1	1.0	0.000e+00	3.884500e+06
1384.8	54779.1	1.0	0.000e+00	1.367446e+06
1694.27	54779.1	1.0	0.000e+00	6.753551e+05
571.008	55094.4	0.0	0.000e+00	1.238399e+08
880.478	55094.4	1.0	0.000e+00	1.071467e+07
1189.95	55094.4	1.0	0.000e+00	2.613287e+06
1499.42	55094.4	1.0	0.000e+00	1.058434e+06
376.157	55409.6	0.0	0.000e+00	3.206314e+09
685.627	55409.6	0.0	0.000e+00	4.491914e+07
995.096	55409.6	1.0	0.000e+00	6.126225e+06
1304.57	55409.6	1.0	0.000e+00	1.861407e+06
1614.04	55409.6	1.0	0.000e+00	8.468092e+05
490.775	55724.9	0.0	0.000e+00	3.922553e+08
800.245	55724.9	1.0	0.000e+00	1.989765e+07
1109.71	55724.9	1.0	0.000e+00	3.869464e+06
1419.18	55724.9	1.0	0.000e+00	1.392108e+06
295.924	56040.2	0.0	0.000e+00	2.437603e+12
605.394	56040.2	0.0	0.000e+00	1.091814e+08
914.863	56040.2	1.0	0.000e+00	1.035490e+07
1224.33	56040.2	1.0	0.000e+00	2.620761e+06
1533.8	56040.2	1.0	0.000e+00	1.085454e+06
410.542	56355.4	0.0	0.000e+00	1.883016e+09
720.012	56355.4	2.0	0.000e+00	4.091884e+07
1029.48	56355.4	1.0	0.000e+00	6.023847e+06
1338.95	56355.4	1.0	0.000e+00	1.887735e+06
1648.42	56355.4	1.0	0.000e+00	8.714397e+05
525.161	56670.7	0.0	0.000e+00	3.197746e+08
834.631	56670.7	1.0	0.000e+00	1.882339e+07
1144.1	56670.7	1.0	0.000e+00	3.839157e+06
1453.57	56670.7	1.0	0.000e+00	1.420093e+06
330.309	56985.9	0.0	0.000e+00	3.984099e+10
639.779	56985.9	0.0	0.000e+00	9.661021e+07
949.249	56985.9	1.0	0.000e+00	9.958889e+06
1258.72	56985.9	1.0	0.000e+00	2.636187e+06
1568.19	56985.9	1.0	0.000e+00	1.109506e+06
444.928	57301.2	0.0	0.000e+00	1.300052e+09
754.398	57301.2	2.0	0.000e+00	3.767533e+07
1063.87	57301.2	1.0	0.000e+00	5.925032e+06
1373.34	57301.2	1.0	0.000e+00	1.907671e+06
1682.81	57301.2	1.0	0.000e+00	8.959554e+05
559.546	57616.5	0.0	0.000e+00	2.680534e+08
869.016	57616.5	1.0	0.000e+00	1.772173e+07
1178.49	57616.5	1.0	0.000e+00	3.824409e+06
1487.96	57616.5	1.0	0.000e+00	1.447577e+06
364.695	57931.7	0.0	0.000e+00	1.228635e+10
674.165	57931.7	0.0	0.000e+00	8.504970e+07
983.635	57931.7	1.0	0.000e+00	9.642851e+06
1293.1	57931.7	1.0	0.000e+00	2.642409e+06
1602.57	57931.7	1.0	0.000e+00	1.135945e+06
479.313	58247.0	0.0	0.000e+00	9.558070e+08
788.783	58247.0	2.0	0.000e+00	3.478025e+07
1098.25	58247.0	1.0	0.000e+00	5.804646e+06
1407.72	58247.0	1.0	0.000e+00	1.932574e+06
284.462	58562.2	0.0	0.000e+00	1.930426e+15
593.932	58562.2	0.0	0.000e+00	2.268983e+08
903.402	58562.2	1.0	0.000e+00	1.682509e+07
1212.87	58562.2	1.0	0.000e+00	3.809819e+06
1522.34	58562.2	1.0	0.000e+00	1.470909e+06
399.08	58877.5	0.0	0.000e+00	5.799541e+09
708.55	58877.5	2.0	0.000e+00	7.593347e+07
1018.02	58877.5	1.0	0.000e+00	9.299392e+06
1327.49	58877.5	1.0	0.000e+00	2.656928e+06
1636.96	58877.5	1.0	0.000e+00	1.162136e+06
513.699	59192.8	0.0	0.000e+00	7.442954e+08
823.169	59192.8	1.0	0.000e+00	3.196357e+07
1132.64	59192.8	1.0	0.000e+00	5.714762e+06
1442.11	59192.8	1.0	0.000e+00	1.951179e+06
318.847	59508.0	0.0	0.000e+00	2.858245e+11
628.317	59508.0	0.0	0.000e+00	1.915290e+08
937.787	59508.0	1.0	0.000e+00	1.600460e+07
1247.26	59508.0	1.0	0.000e+00	3.781804e+06
1556.73	59508.0	1.0	0.000e+00	1.497536e+06
433.466	59823.3	0.0	0.000e+00	3.559885e+09
742.936	59823.3	2.0	0.000e+00	6.810049e+07
1052.41	59823.3	1.0	0.000e+00	9.025840e+06
1361.88	59823.3	1.0	0.000e+00	2.670974e+06
1671.35	59823.3	1.0	0.000e+00	1.185507e+06
548.084	60138.6	0.0	0.000e+00	5.854821e+08
857.554	60138.6	1.0	0.000e+00	2.969296e+07
1167.02	60138.6	1.0	0.000e+00	5.606905e+06
1476.49	60138.6	1.0	0.000e+00	1.975025e+06
353.233	60453.8	0.0	0.000e+00	5.104593e+10
662.703	60453.8	0.0	0.000e+00	1.647111e+08
972.173	60453.8	1.0	0.000e+00	1.516553e+07
1281.64	60453.8	1.0	0.000e+00	3.768164e+06
1591.11	60453.8	1.0	0.000e+00	1.519960e+06
467.851	60769.1	0.0	0.000e+00	2.446758e+09
777.321	60769.1	2.0	0.000e+00	6.085827e+07
1086.79	60769.1	1.0	0.000e+00	8.770819e+06
1396.26	60769.1	1.0	0.000e+00	2.676429e+06
273.0 	61084.3	0.0	0.000e+00	2.666746e+20
582.47	61084.3	0.0	0.000e+00	4.747923e+08
891.94	61084.3	1.0	0.000e+00	2.767049e+07
1201.41	61084.3	1.0	0.000e+00	5.528009e+06
1510.88	61084.3	1.0	0.000e+00	1.998424e+06
387.618	61399.6	0.0	0.000e+00	1.976329e+10
697.088	61399.6	2.0	0.000e+00	1.413012e+08
1006.56	61399.6	1.0	0.000e+00	1.448744e+07
1316.03	61399.6	1.0	0.000e+00	3.742753e+06
1625.5	61399.6	1.0	0.000e+00	1.545892e+06
502.237	61714.9	0.0	0.000e+00	1.754609e+09
811.707	61714.9	2.0	0.000e+00	5.510307e+07
1121.18	61714.9	1.0	0.000e+00	8.492950e+06
1430.65	61714.9	1.0	0.000e+00	2.689720e+06
307.386	62030.1	0.0	0.000e+00	3.348708e+12
616.855	62030.1	0.0	0.000e+00	3.899825e+08
926.325	62030.1	1.0	0.000e+00	2.570209e+07
1235.8	62030.1	1.0	0.000e+00	5.453635e+06
1545.27	62030.1	1.0	0.000e+00	2.016128e+06
422.004	62345.4	0.0	0.000e+00	1.021966e+10
731.474	62345.4	2.0	0.000e+00	1.233329e+08
1040.94	62345.4	1.0	0.000e+00	1.386782e+07
1350.41	62345.4	1.0	0.000e+00	3.731505e+06
1659.88	62345.4	1.0	0.000e+00	1.571523e+06
536.622	62660.6	0.0	0.000e+00	1.326299e+09
846.092	62660.6	1.0	0.000e+00	4.975926e+07
1155.56	62660.6	1.0	0.000e+00	8.274376e+06
1465.03	62660.6	1.0	0.000e+00	2.695241e+06
341.771	62975.9	0.0	0.000e+00	2.574241e+11
651.241	62975.9	0.0	0.000e+00	3.202176e+08
960.711	62975.9	1.0	0.000e+00	2.410464e+07
1270.18	62975.9	1.0	0.000e+00	5.362572e+06
1579.65	62975.9	1.0	0.000e+00	2.038643e+06
456.39	63291.2	0.0	0.000e+00	6.385976e+09
765.859	63291.2	2.0	0.000e+00	1.083862e+08
1075.33	63291.2	1.0	0.000e+00	1.323331e+07
1384.8	63291.2	1.0	0.000e+00	3.721132e+06
1694.27	63291.2	1.0	0.000e+00	1.593244e+06
571.008	63606.4	0.0	0.000e+00	1.012060e+09
880.478	63606.4	1.0	0.000e+00	4.549594e+07
1189.95	63606.4	1.0	0.000e+00	8.071150e+06
1499.42	63606.4	1.0	0.000e+00	2.708711e+06
376.157	63921.7	0.0	0.000e+00	7.129225e+10
685.627	63921.7	2.0	0.000e+00	2.689115e+08
995.096	63921.7	1.0	0.000e+00	2.254513e+07
1304.57	63921.7	1.0	0.000e+00	5.297776e+06
1614.04	63921.7	1.0	0.000e+00	2.055893e+06
490.775	64236.9	0.0	0.000e+00	4.332349e+09
800.245	64236.9	2.0	0.000e+00	9.505286e+07
1109.71	64236.9	1.0	0.000e+00	1.271817e+07
1419.18	64236.9	1.0	0.000e+00	3.699396e+06
295.924	64552.2	0.0	0.000e+00	2.087289e+14
605.394	64552.2	0.0	0.000e+00	7.982756e+08
914.863	64552.2	1.0	0.000e+00	4.178371e+07
1224.33	64552.2	1.0	0.000e+00	7.849232e+06
1533.8	64552.2	1.0	0.000e+00	2.722134e+06
410.542	64867.5	0.0	0.000e+00	3.188401e+10
720.012	64867.5	2.0	0.000e+00	2.257113e+08
1029.48	64867.5	1.0	0.000e+00	2.127951e+07
1338.95	64867.5	1.0	0.000e+00	5.237085e+06
1648.42	64867.5	1.0	0.000e+00	2.078131e+06
525.161	65182.7	0.0	0.000e+00	3.034315e+09
834.631	65182.7	2.0	0.000e+00	8.466223e+07
1144.1	65182.7	1.0	0.000e+00	1.218955e+07
1453.57	65182.7	1.0	0.000e+00	3.691218e+06
330.309	65498.0	0.0	0.000e+00	1.490551e+12
639.779	65498.0	0.0	0.000e+00	6.394398e+08
949.249	65498.0	1.0	0.000e+00	3.828489e+07
1258.72	65498.0	1.0	0.000e+00	7.675345e+06
1568.19	65498.0	1.0	0.000e+00	2.728080e+06
444.928	65813.3	0.0	0.000e+00	1.775227e+10
754.398	65813.3	2.0	0.000e+00	1.932569e+08
1063.87	65813.3	1.0	0.000e+00	2.014223e+07
1373.34	65813.3	1.0	0.000e+00	5.162217e+06
1682.81	65813.3	1.0	0.000e+00	2.100152e+06
559.546	66128.5	0.0	0.000e+00	2.234873e+09
869.016	66128.5	1.0	0.000e+00	7.528260e+07
1178.49	66128.5	1.0	0.000e+00	1.176237e+07
1487.96	66128.5	1.0	0.000e+00	3.683986e+06
364.695	66443.8	0.0	0.000e+00	2.979313e+11
674.165	66443.8	2.0	0.000e+00	5.131804e+08
983.635	66443.8	1.0	0.000e+00	3.546281e+07
1293.1	66443.8	1.0	0.000e+00	7.483187e+06
1602.57	66443.8	1.0	0.000e+00	2.741388e+06
479.313	66759.0	0.0	0.000e+00	1.085786e+10
788.783	66759.0	2.0	0.000e+00	1.669133e+08
1098.25	66759.0	1.0	0.000e+00	1.901679e+07
1407.72	66759.0	1.0	0.000e+00	5.109879e+06
284.462	67074.3	0.0	0.000e+00	2.886216e+17
593.932	67074.3	0.0	0.000e+00	1.686716e+09
903.402	67074.3	1.0	0.000e+00	6.788374e+07
1212.87	67074.3	1.0	0.000e+00	1.137015e+07
1522.34	67074.3	1.0	0.000e+00	3.666782e+06
399.08	67389.6	0.0	0.000e+00	1.034878e+11
708.55	67389.6	2.0	0.000e+00	4.223701e+08
1018.02	67389.6	1.0	0.000e+00	3.278199e+07
1327.49	67389.6	1.0	0.000e+00	7.334353e+06
1636.96	67389.6	1.0	0.000e+00	2.755044e+06
513.699	67704.8	0.0	0.000e+00	7.252908e+09
823.169	67704.8	2.0	0.000e+00	1.440555e+08
1132.64	67704.8	1.0	0.000e+00	1.809796e+07
1442.11	67704.8	1.0	0.000e+00	5.043760e+06
318.847	68020.1	0.0	0.000e+00	1.273068e+13
628.317	68020.1	0.0	0.000e+00	1.281610e+09
937.787	68020.1	1.0	0.000e+00	6.155239e+07
1247.26	68020.1	1.0	0.000e+00	1.096191e+07
1556.73	68020.1	1.0	0.000e+00	3.661710e+06
433.466	68335.3	0.0	0.000e+00	5.056103e+10
742.936	68335.3	2.0	0.000e+00	3.517290e+08
1052.41	68335.3	1.0	0.000e+00	3.061138e+07
1361.88	68335.3	1.0	0.000e+00	7.195929e+06
1671.35	68335.3	1.0	0.000e+00	2.761703e+06
548.084	68650.6	0.0	0.000e+00	4.972528e+09
857.554	68650.6	2.0	0.000e+00	1.264794e+08
1167.02	68650.6	1.0	0.000e+00	1.718368e+07
1476.49	68650.6	1.0	0.000e+00	4.998915e+06
353.233	68965.9	0.0	0.000e+00	1.355233e+12
662.703	68965.9	2.0	0.000e+00	1.005286e+09
972.173	68965.9	1.0	0.000e+00	5.571530e+07
1281.64	68965.9	1.0	0.000e+00	1.063159e+07
1591.11	68965.9	1.0	0.000e+00	3.646831e+06
467.851	69281.1	0.0	0.000e+00	2.880304e+10
777.321	69281.1	2.0	0.000e+00	2.931899e+08
1086.79	69281.1	1.0	0.000e+00	2.868593e+07
1396.26	69281.1	1.0	0.000e+00	7.041606e+06
273.0 	69596.4	0.0	0.000e+00	1.023861e+23
582.47	69596.4	0.0	0.000e+00	3.583606e+09
891.94	69596.4	1.0	0.000e+00	1.118627e+08
1201.41	69596.4	1.0	0.000e+00	1.643794e+07
1510.88	69596.4	1.0	0.000e+00	4.957223e+06
387.618	69911.6	0.0	0.000e+00	3.770268e+11
697.088	69911.6	2.0	0.000e+00	7.917881e+08
1006.56	69911.6	1.0	0.000e+00	5.105239e+07
1316.03	69911.6	1.0	0.000e+00	1.028634e+07
1625.5	69911.6	1.0	0.000e+00	3.643825e+06
502.237	70226.9	0.0	0.000e+00	1.752907e+10
811.707	70226.9	2.0	0.000e+00	2.494564e+08
1121.18	70226.9	1.0	0.000e+00	2.682159e+07
1430.65	70226.9	1.0	0.000e+00	6.922118e+06
307.386	70542.2	0.0	0.000e+00	1.835741e+14
616.855	70542.2	0.0	0.000e+00	2.649538e+09
926.325	70542.2	1.0	0.000e+00	9.885983e+07
1235.8	70542.2	1.0	0.000e+00	1.575984e+07
1545.27	70542.2	1.0	0.000e+00	4.903423e+06
422.004	70857.4	0.0	0.000e+00	1.515727e+11
731.474	70857.4	2.0	0.000e+00	6.408067e+08
1040.94	70857.4	1.0	0.000e+00	4.699881e+07
1350.41	70857.4	1.0	0.000e+00	1.000879e+07
1659.88	70857.4	1.0	0.000e+00	3.641685e+06
536.622	71172.7	0.0	0.000e+00	1.153644e+10
846.092	71172.7	2.0	0.000e+00	2.123961e+08
1155.56	71172.7	1.0	0.000e+00	2.530427e+07
1465.03	71172.7	1.0	0.000e+00	6.788323e+06
341.771	71488.0	0.0	0.000e+00	7.708220e+12
651.241	71488.0	2.0	0.000e+00	1.975023e+09
960.711	71488.0	1.0	0.000e+00	8.863879e+07
1270.18	71488.0	1.0	0.000e+00	1.507441e+07
1579.65	71488.0	1.0	0.000e+00	4.868015e+06
456.39	71803.2	0.0	0.000e+00	7.776296e+10
765.859	71803.2	2.0	0.000e+00	5.255740e+08
1075.33	71803.2	1.0	0.000e+00	4.319615e+07
1384.8	71803.2	1.0	0.000e+00	9.752268e+06
1694.27	71803.2	1.0	0.000e+00	3.630759e+06
571.008	72118.5	0.0	0.000e+00	7.767612e+09
880.478	72118.5	1.0	0.000e+00	1.841842e+08
1189.95	72118.5	1.0	0.000e+00	2.394429e+07
1499.42	72118.5	1.0	0.000e+00	6.686365e+06
376.157	72433.7	0.0	0.000e+00	1.455030e+12
685.627	72433.7	2.0	0.000e+00	1.522967e+09
995.096	72433.7	1.0	0.000e+00	7.938752e+07
1304.57	72433.7	1.0	0.000e+00	1.451290e+07
1614.04	72433.7	1.0	0.000e+00	4.820650e+06
490.775	72749.0	0.0	0.000e+00	4.467515e+10
800.245	72749.0	2.0	0.000e+00	4.319958e+08
1109.71	72749.0	1.0	0.000e+00	4.011688e+07
1419.18	72749.0	1.0	0.000e+00	9.479495e+06
295.924	73064.3	0.0	0.000e+00	1.621952e+16
605.394	73064.3	0.0	0.000e+00	5.499208e+09
914.863	73064.3	1.0	0.000e+00	1.610465e+08
1224.33	73064.3	1.0	0.000e+00	2.261041e+07
1533.8	73064.3	1.0	0.000e+00	6.591390e+06
410.542	73379.5	0.0	0.000e+00	4.992834e+11
720.012	73379.5	2.0	0.000e+00	1.180874e+09
1029.48	73379.5	1.0	0.000e+00	7.203921e+07
1338.95	73379.5	1.0	0.000e+00	1.400061e+07
1648.42	73379.5	1.0	0.000e+00	4.790811e+06
525.161	73694.8	0.0	0.000e+00	2.698593e+10
834.631	73694.8	2.0	0.000e+00	3.629498e+08
1144.1	73694.8	1.0	0.000e+00	3.718884e+07
1453.57	73694.8	1.0	0.000e+00	9.260366e+06
330.309	74010.0	0.0	0.000e+00	5.079082e+13
639.779	74010.0	2.0	0.000e+00	3.998539e+09
949.249	74010.0	1.0	0.000e+00	1.408041e+08
1258.72	74010.0	1.0	0.000e+00	2.151654e+07
1568.19	74010.0	1.0	0.000e+00	6.482348e+06
444.928	74325.3	0.0	0.000e+00	2.254982e+11
754.398	74325.3	2.0	0.000e+00	9.424170e+08
1063.87	74325.3	1.0	0.000e+00	6.571789e+07
1373.34	74325.3	1.0	0.000e+00	1.347593e+07
1682.81	74325.3	1.0	0.000e+00	4.763311e+06
559.546	74640.6	0.0	0.000e+00	1.752640e+10
869.016	74640.6	2.0	0.000e+00	3.054151e+08
1178.49	74640.6	1.0	0.000e+00	3.480636e+07
1487.96	74640.6	1.0	0.000e+00	9.058058e+06
364.695	74955.8	0.0	0.000e+00	6.634424e+12
674.165	74955.8	2.0	0.000e+00	2.934154e+09
983.635	74955.8	1.0	0.000e+00	1.249912e+08
1293.1	74955.8	1.0	0.000e+00	2.043090e+07
1602.57	74955.8	1.0	0.000e+00	6.400011e+06
479.313	75271.1	0.0	0.000e+00	1.152989e+11
788.783	75271.1	2.0	0.000e+00	7.631558e+08
1098.25	75271.1	1.0	0.000e+00	5.987831e+07
1407.72	75271.1	1.0	0.000e+00	1.304751e+07
284.462	75586.3	0.0	0.000e+00	3.909088e+19
593.932	75586.3	2.0	0.000e+00	1.183187e+10
903.402	75586.3	1.0	0.000e+00	2.620311e+08
1212.87	75586.3	1.0	0.000e+00	3.268824e+07
1522.34	75586.3	1.0	0.000e+00	8.839846e+06
399.08	75901.6	0.0	0.000e+00	1.709428e+12
708.55	75901.6	2.0	0.000e+00	2.231727e+09
1018.02	75901.6	1.0	0.000e+00	1.109225e+08
1327.49	75901.6	1.0	0.000e+00	1.954037e+07
1636.96	75901.6	1.0	0.000e+00	6.323868e+06
513.699	76216.9	0.0	0.000e+00	6.633481e+10
823.169	76216.9	2.0	0.000e+00	6.197975e+08
1132.64	76216.9	1.0	0.000e+00	5.515687e+07
1442.11	76216.9	1.0	0.000e+00	1.260347e+07
318.847	76532.1	0.0	0.000e+00	5.177167e+14
628.317	76532.1	2.0	0.000e+00	8.116452e+09
937.787	76532.1	1.0	0.000e+00	2.268528e+08
1247.26	76532.1	1.0	0.000e+00	3.064405e+07
1556.73	76532.1	1.0	0.000e+00	8.666583e+06
433.466	76847.4	0.0	0.000e+00	6.688085e+11
742.936	76847.4	2.0	0.000e+00	1.729586e+09
1052.41	76847.4	1.0	0.000e+00	9.979223e+07
1361.88	76847.4	1.0	0.000e+00	1.873029e+07
1671.35	76847.4	1.0	0.000e+00	6.234548e+06
548.084	77162.7	0.0	0.000e+00	3.978145e+10
857.554	77162.7	2.0	0.000e+00	5.152707e+08
1167.02	77162.7	1.0	0.000e+00	5.074480e+07
1476.49	77162.7	1.0	0.000e+00	1.224246e+07
353.233	77477.9	0.0	0.000e+00	3.306013e+13
662.703	77477.9	2.0	0.000e+00	5.822303e+09
972.173	77477.9	1.0	0.000e+00	1.964608e+08
1281.64	77477.9	1.0	0.000e+00	2.896111e+07
1591.11	77477.9	1.0	0.000e+00	8.476947e+06
467.851	77793.2	0.0	0.000e+00	3.173233e+11
777.321	77793.2	2.0	0.000e+00	1.347672e+09
1086.79	77793.2	1.0	0.000e+00	9.030157e+07
1396.26	77793.2	1.0	0.000e+00	1.791691e+07
273.0 	78108.4	0.0	0.000e+00	3.514657e+25
582.47	78108.4	2.0	0.000e+00	2.555968e+10
891.94	78108.4	2.0	0.000e+00	4.332634e+08
1201.41	78108.4	1.0	0.000e+00	4.715370e+07
1510.88	78108.4	1.0	0.000e+00	1.190891e+07
387.618	78423.7	0.0	0.000e+00	6.661451e+12
697.088	78423.7	2.0	0.000e+00	4.220703e+09
1006.56	78423.7	1.0	0.000e+00	1.729247e+08
1316.03	78423.7	1.0	0.000e+00	2.732359e+07
1625.5	78423.7	1.0	0.000e+00	8.327970e+06
502.237	78739.0	0.0	0.000e+00	1.646188e+11
811.707	78739.0	2.0	0.000e+00	1.079783e+09
1121.18	78739.0	1.0	0.000e+00	8.164283e+07
1430.65	78739.0	1.0	0.000e+00	1.724652e+07
307.386	79054.2	0.0	0.000e+00	9.212894e+15
616.855	79054.2	2.0	0.000e+00	1.705929e+10
926.325	79054.2	1.0	0.000e+00	3.649059e+08
1235.8	79054.2	1.0	0.000e+00	4.398330e+07
1545.27	79054.2	1.0	0.000e+00	1.155960e+07
422.004	79369.5	0.0	0.000e+00	2.095695e+12
731.474	79369.5	2.0	0.000e+00	3.174355e+09
1040.94	79369.5	1.0	0.000e+00	1.533118e+08
1350.41	79369.5	1.0	0.000e+00	2.597265e+07
1659.88	79369.5	1.0	0.000e+00	8.189083e+06
536.622	79684.7	0.0	0.000e+00	9.464004e+10
846.092	79684.7	2.0	0.000e+00	8.682937e+08
1155.56	79684.7	1.0	0.000e+00	7.466535e+07
1465.03	79684.7	1.0	0.000e+00	1.656560e+07
341.771	80000.0	0.0	0.000e+00	2.120918e+14
651.241	80000.0	2.0	0.000e+00	1.157254e+10
960.711	80000.0	1.0	0.000e+00	3.132148e+08
1270.18	80000.0	1.0	0.000e+00	4.096251e+07
1579.65	80000.0	1.0	0.000e+00	1.127557e+07
1700.0	80000.0	1.0	0.000e+00	7.667610e+06